# Created by:        SpecsLab Prodigy, Version 4.123.1-r123826 
#
# XY-Serializer Export Settings:
#   Comment Prefix:               #
#   Output Meta Data:             yes
#   Energy Axis:                  Kinetic Energy
#   Count Rate:                   Counts per Second
#   Separate Scan Data:           no
#   Separate Channel Data:        no
#   Separate Non-Energy Channels: yes
#   External Channel Data:        yes
#   Transmission Function:        yes
#   Error Bar:                    no
#   Operation Results:            yes
#   Time Zone Format:             UTC
#
#
# Experiment Description:       
#
# Group:                        Transmission cyclic
# Scan Mode:                    FixedAnalyzerTransmission
# Analyzer Lens Voltage:        1.5kV
# Calibration File:             C:\Program Files\SPECS\SpecsLab Prodigy\database\DatasetCalib1D\PHOIBOS HSA3500 DLD 150 R7[HWType 30:101] DLD
# Transmission File:            Default
# Analyzer Slit:                4:7x20c\B:open
# Iris Diameter:                60
#
# Source Parameters
#   Name:                         X-Ray Dummy
#   Polar Angle:                  54.5 °
#   Azimuth Angle:                90 °
#   uanode:                       0
#   iemission:                    0
#   ihv:                          0
#   ufilament:                    0
#   ifilament:                    0
#   panode:                       0
#   temperature:                  0
#   anode:                        Al
#   polar_angle:                  54.5
#   azimuth_angle:                90
#
# Region:                       C1S22
# Spectrum ID:                  22
# Acquisition Date:             03/11/25 10:07:26 UTC
# Analysis Method:              XPS
# Analyzer Lens Mode:           SmallArea
# Scan Variable:                Kinetic Energy
# Curves/Scan:                  1
# Values/Curve:                 151
# Step Size:                    0.1
# Dwell Time:                   0.3
# Excitation Energy:            1486.61
# Kinetic Energy:               1191.61
# Pass Energy:                  20
# Bias Voltage:                 90
# Detector Voltage:             1800
# Eff. Workfunction:            4.14
# OrdinateRange:                [-22.000000, 22.000000]
#
# Comment:                      CB in UHV

# Cycle: 0
#
# Number of Scans: 10

# Cycle: 0, Curve: 0
#
# Acquisition Date:             03/11/25 10:07:26 UTC
# ColumnLabels:                 energy counts/s transmission
#
1191.61  194.8903  1
1191.71  198.57768  1
1191.81  205.26561  1
1191.91  204.18884  1
1192.01  208.60547  1
1192.11  208.16814  1
1192.21  199.44276  1
1192.31  208.21648  1
1192.41  213.89921  1
1192.51  224.72515  1
1192.61  226.69543  1
1192.71  229.49033  1
1192.81  219.73307  1
1192.91  212.55889  1
1193.01  218.35178  1
1193.11  225.30209  1
1193.21  232.01295  1
1193.31  218.57946  1
1193.41  211.91475  1
1193.51  215.17259  1
1193.61  229.90895  1
1193.71  231.21124  1
1193.81  225.15863  1
1193.91  226.71031  1
1194.01  241.70206  1
1194.11  256.02912  1
1194.21  255.05694  1
1194.31  251.76328  1
1194.41  255.33357  1
1194.51  259.95224  1
1194.61  248.47795  1
1194.71  265.68119  1
1194.81  259.42395  1
1194.91  272.08576  1
1195.01  270.52639  1
1195.11  279.93023  1
1195.21  295.36817  1
1195.31  307.60513  1
1195.41  301.59155  1
1195.51  297.0199  1
1195.61  309.37749  1
1195.71  299.58013  1
1195.81  316.63441  1
1195.91  322.45003  1
1196.01  328.49483  1
1196.11  309.7934  1
1196.21  312.07839  1
1196.31  314.03729  1
1196.41  310.97414  1
1196.51  295.88925  1
1196.61  303.27899  1
1196.71  317.91584  1
1196.81  297.44101  1
1196.91  292.05418  1
1197.01  292.3974  1
1197.11  298.80997  1
1197.21  300.51726  1
1197.31  311.39472  1
1197.41  291.51743  1
1197.51  285.1917  1
1197.61  284.6364  1
1197.71  309.60192  1
1197.81  302.51138  1
1197.91  310.90604  1
1198.01  313.86737  1
1198.11  313.35021  1
1198.21  307.10741  1
1198.31  310.06319  1
1198.41  324.46824  1
1198.51  305.47408  1
1198.61  316.01021  1
1198.71  312.61273  1
1198.81  307.29206  1
1198.91  322.6115  1
1199.01  326.59065  1
1199.11  315.58842  1
1199.21  346.04927  1
1199.31  361.45416  1
1199.41  368.98535  1
1199.51  395.4869  1
1199.61  394.08752  1
1199.71  401.60812  1
1199.81  421.12828  1
1199.91  436.24976  1
1200.01  443.17437  1
1200.11  479.90647  1
1200.21  496.09132  1
1200.31  499.71714  1
1200.41  545.37541  1
1200.51  596.77254  1
1200.61  646.5053  1
1200.71  637.34332  1
1200.81  680.46493  1
1200.91  754.44028  1
1201.01  806.5357  1
1201.11  867.55682  1
1201.21  989.39266  1
1201.31  1133.7639  1
1201.41  1239.4666  1
1201.51  1413.0139  1
1201.61  1719.4959  1
1201.71  2038.0133  1
1201.81  2474.886  1
1201.91  2923.442  1
1202.01  3514.5448  1
1202.11  3978.9518  1
1202.21  4179.0154  1
1202.31  4189.8289  1
1202.41  3848.919  1
1202.51  3198.4815  1
1202.61  2497.2665  1
1202.71  1840.0353  1
1202.81  1366.6071  1
1202.91  1005.0665  1
1203.01  734.60933  1
1203.11  559.1916  1
1203.21  418.55918  1
1203.31  308.18996  1
1203.41  216.74273  1
1203.51  153.2019  1
1203.61  106.98525  1
1203.71  76.333268  1
1203.81  73.041047  1
1203.91  61.116727  1
1204.01  55.766131  1
1204.11  47.998065  1
1204.21  43.113747  1
1204.31  34.029564  1
1204.41  41.439307  1
1204.51  31.325362  1
1204.61  24.998269  1
1204.71  24.800445  1
1204.81  32.529172  1
1204.91  28.259956  1
1205.01  28.925983  1
1205.11  23.613358  1
1205.21  28.257971  1
1205.31  24.892758  1
1205.41  19.050832  1
1205.51  19.601598  1
1205.61  22.704053  1
1205.71  21.708105  1
1205.81  20.694054  1
1205.91  17.516515  1
1206.01  19.69064  1
1206.11  21.03443  1
1206.21  19.113046  1
1206.31  20.778407  1
1206.41  19.981355  1
1206.51  15.916856  1
1206.61  16.239337  1

